Date:	2023-09-18		
Time:	19:47		
Sample name:	Pellets		
Position:	262.600011	mm	
Sample surface:	5.913061	cm	
Tube anode:	Mo		
Tube voltage:	30	kV	
Tube current:	50	mA	
Comments	not in position		
Gain	5.810000		
peaking_time	0.300000	m-sec	
trigger_threshold	30.000000	V	
mca_bin_width	2.000000	no:	
number_mca_channels	2048.000000	no:	
gap_time	0.100000	m-sec	
trigger_peaking_time	0.050000	m-sec	
livetime	17.382420	seconds	
runtime	20.000114	seconds	
input_count_rate	112750.585270	cps	
output_count_rate	97993.338988	cps	
triggers	2181392.000000	seconds	
events_in_run	1951373.000000	seconds	
channel	content		
 1.00	 0.00
 2.00	 0.00
 3.00	 0.00
 4.00	 0.00
 5.00	 0.00
 6.00	 0.00
 7.00	 0.00
 8.00	 0.00
 9.00	 0.00
10.00	 0.00
11.00	 0.00
12.00	 0.00
13.00	 0.00
14.00	 0.00
15.00	 0.00
16.00	 0.00
17.00	 0.00
18.00	 0.00
19.00	 0.00
20.00	 0.00
21.00	 0.00
22.00	 0.00
23.00	 0.00
24.00	 0.00
25.00	 0.00
26.00	 0.00
27.00	 0.00
28.00	 0.00
29.00	 0.00
30.00	 0.00
31.00	 3.00
32.00	 2.00
33.00	 4.00
34.00	 5.00
35.00	10.00
36.00	13.00
37.00	27.00
38.00	37.00
39.00	51.00
40.00	69.00
41.00	72.00
42.00	92.00
43.00	119.00
44.00	110.00
45.00	169.00
46.00	211.00
47.00	252.00
48.00	288.00
49.00	299.00
50.00	308.00
51.00	352.00
52.00	397.00
53.00	403.00
54.00	399.00
55.00	437.00
56.00	504.00
57.00	431.00
58.00	461.00
59.00	472.00
60.00	487.00
61.00	508.00
62.00	521.00
63.00	464.00
64.00	531.00
65.00	546.00
66.00	515.00
67.00	503.00
68.00	526.00
69.00	558.00
70.00	544.00
71.00	571.00
72.00	570.00
73.00	503.00
74.00	587.00
75.00	542.00
76.00	522.00
77.00	541.00
78.00	532.00
79.00	558.00
80.00	514.00
81.00	526.00
82.00	522.00
83.00	521.00
84.00	523.00
85.00	528.00
86.00	550.00
87.00	527.00
88.00	475.00
89.00	513.00
90.00	527.00
91.00	474.00
92.00	459.00
93.00	490.00
94.00	501.00
95.00	470.00
96.00	477.00
97.00	428.00
98.00	449.00
99.00	465.00
100.00	442.00
101.00	432.00
102.00	462.00
103.00	450.00
104.00	444.00
105.00	441.00
106.00	448.00
107.00	396.00
108.00	403.00
109.00	336.00
110.00	408.00
111.00	411.00
112.00	390.00
113.00	440.00
114.00	422.00
115.00	436.00
116.00	450.00
117.00	414.00
118.00	432.00
119.00	396.00
120.00	432.00
121.00	426.00
122.00	399.00
123.00	378.00
124.00	354.00
125.00	356.00
126.00	343.00
127.00	342.00
128.00	315.00
129.00	334.00
130.00	367.00
131.00	363.00
132.00	361.00
133.00	374.00
134.00	413.00
135.00	460.00
136.00	629.00
137.00	952.00
138.00	1375.00
139.00	1975.00
140.00	3022.00
141.00	3978.00
142.00	4934.00
143.00	5787.00
144.00	6134.00
145.00	6308.00
146.00	5971.00
147.00	5243.00
148.00	4179.00
149.00	3244.00
150.00	2532.00
151.00	1887.00
152.00	1480.00
153.00	1174.00
154.00	969.00
155.00	792.00
156.00	692.00
157.00	675.00
158.00	612.00
159.00	867.00
160.00	1240.00
161.00	2017.00
162.00	3376.00
163.00	5308.00
164.00	8018.00
165.00	11404.00
166.00	14629.00
167.00	17397.00
168.00	20119.00
169.00	20694.00
170.00	19783.00
171.00	18113.00
172.00	14702.00
173.00	11763.00
174.00	8775.00
175.00	6385.00
176.00	4350.00
177.00	3197.00
178.00	2426.00
179.00	1971.00
180.00	1722.00
181.00	1626.00
182.00	1624.00
183.00	1698.00
184.00	2127.00
185.00	2407.00
186.00	2921.00
187.00	3341.00
188.00	3653.00
189.00	3794.00
190.00	3675.00
191.00	3388.00
192.00	2975.00
193.00	2297.00
194.00	1933.00
195.00	1355.00
196.00	1011.00
197.00	787.00
198.00	653.00
199.00	518.00
200.00	428.00
201.00	385.00
202.00	388.00
203.00	400.00
204.00	343.00
205.00	350.00
206.00	361.00
207.00	359.00
208.00	372.00
209.00	364.00
210.00	404.00
211.00	409.00
212.00	419.00
213.00	434.00
214.00	480.00
215.00	539.00
216.00	573.00
217.00	648.00
218.00	713.00
219.00	785.00
220.00	713.00
221.00	756.00
222.00	762.00
223.00	735.00
224.00	618.00
225.00	587.00
226.00	539.00
227.00	484.00
228.00	415.00
229.00	356.00
230.00	333.00
231.00	371.00
232.00	309.00
233.00	318.00
234.00	357.00
235.00	284.00
236.00	323.00
237.00	306.00
238.00	299.00
239.00	295.00
240.00	318.00
241.00	339.00
242.00	318.00
243.00	299.00
244.00	358.00
245.00	341.00
246.00	335.00
247.00	305.00
248.00	295.00
249.00	315.00
250.00	350.00
251.00	323.00
252.00	310.00
253.00	311.00
254.00	366.00
255.00	369.00
256.00	358.00
257.00	353.00
258.00	334.00
259.00	370.00
260.00	370.00
261.00	399.00
262.00	354.00
263.00	373.00
264.00	412.00
265.00	435.00
266.00	445.00
267.00	458.00
268.00	452.00
269.00	441.00
270.00	489.00
271.00	491.00
272.00	439.00
273.00	452.00
274.00	405.00
275.00	460.00
276.00	522.00
277.00	623.00
278.00	787.00
279.00	1011.00
280.00	1306.00
281.00	1770.00
282.00	2180.00
283.00	2614.00
284.00	3097.00
285.00	3460.00
286.00	3685.00
287.00	3736.00
288.00	3616.00
289.00	3345.00
290.00	3001.00
291.00	2452.00
292.00	1881.00
293.00	1639.00
294.00	1201.00
295.00	983.00
296.00	783.00
297.00	662.00
298.00	535.00
299.00	541.00
300.00	555.00
301.00	617.00
302.00	614.00
303.00	673.00
304.00	754.00
305.00	869.00
306.00	1006.00
307.00	1137.00
308.00	1333.00
309.00	1683.00
310.00	2216.00
311.00	3182.00
312.00	4409.00
313.00	6345.00
314.00	8874.00
315.00	12066.00
316.00	15519.00
317.00	19757.00
318.00	23620.00
319.00	26975.00
320.00	29025.00
321.00	29905.00
322.00	29701.00
323.00	27445.00
324.00	24512.00
325.00	20723.00
326.00	16655.00
327.00	12919.00
328.00	9366.00
329.00	6598.00
330.00	4431.00
331.00	3033.00
332.00	2052.00
333.00	1508.00
334.00	1174.00
335.00	1123.00
336.00	1163.00
337.00	1300.00
338.00	1526.00
339.00	1951.00
340.00	2621.00
341.00	3412.00
342.00	4332.00
343.00	6082.00
344.00	8805.00
345.00	12519.00
346.00	18316.00
347.00	27355.00
348.00	40240.00
349.00	58133.00
350.00	82138.00
351.00	111982.00
352.00	146710.00
353.00	185441.00
354.00	222901.00
355.00	255694.00
356.00	281173.00
357.00	293724.00
358.00	294935.00
359.00	280985.00
360.00	255050.00
361.00	220866.00
362.00	182129.00
363.00	143527.00
364.00	108169.00
365.00	77740.00
366.00	53756.00
367.00	35569.00
368.00	22592.00
369.00	14186.00
370.00	8668.00
371.00	5454.00
372.00	3702.00
373.00	2824.00
374.00	2550.00
375.00	2808.00
376.00	3395.00
377.00	4352.00
378.00	5617.00
379.00	7794.00
380.00	10464.00
381.00	14028.00
382.00	18349.00
383.00	23078.00
384.00	28436.00
385.00	33767.00
386.00	38006.00
387.00	41473.00
388.00	43139.00
389.00	43513.00
390.00	41608.00
391.00	38289.00
392.00	34233.00
393.00	28625.00
394.00	23346.00
395.00	18123.00
396.00	13436.00
397.00	9637.00
398.00	6792.00
399.00	4729.00
400.00	3140.00
401.00	2103.00
402.00	1422.00
403.00	998.00
404.00	755.00
405.00	648.00
406.00	527.00
407.00	536.00
408.00	467.00
409.00	451.00
410.00	483.00
411.00	462.00
412.00	437.00
413.00	464.00
414.00	479.00
415.00	509.00
416.00	524.00
417.00	582.00
418.00	603.00
419.00	603.00
420.00	687.00
421.00	836.00
422.00	996.00
423.00	1229.00
424.00	1605.00
425.00	2152.00
426.00	3026.00
427.00	4093.00
428.00	5295.00
429.00	7197.00
430.00	9111.00
431.00	11259.00
432.00	13587.00
433.00	15759.00
434.00	17358.00
435.00	18378.00
436.00	19219.00
437.00	19078.00
438.00	17902.00
439.00	16371.00
440.00	14724.00
441.00	12662.00
442.00	10585.00
443.00	8617.00
444.00	6986.00
445.00	5648.00
446.00	4762.00
447.00	3994.00
448.00	3763.00
449.00	3314.00
450.00	3132.00
451.00	2917.00
452.00	2686.00
453.00	2514.00
454.00	2278.00
455.00	2106.00
456.00	1920.00
457.00	1792.00
458.00	1581.00
459.00	1583.00
460.00	1505.00
461.00	1588.00
462.00	1603.00
463.00	1748.00
464.00	1872.00
465.00	1991.00
466.00	2212.00
467.00	2383.00
468.00	2486.00
469.00	2876.00
470.00	3105.00
471.00	3487.00
472.00	3852.00
473.00	4049.00
474.00	4418.00
475.00	4645.00
476.00	4847.00
477.00	4900.00
478.00	4670.00
479.00	4594.00
480.00	4230.00
481.00	3919.00
482.00	3466.00
483.00	3173.00
484.00	2599.00
485.00	2207.00
486.00	1918.00
487.00	1661.00
488.00	1438.00
489.00	1308.00
490.00	1174.00
491.00	1188.00
492.00	1071.00
493.00	1164.00
494.00	1095.00
495.00	1175.00
496.00	1179.00
497.00	1277.00
498.00	1295.00
499.00	1373.00
500.00	1359.00
501.00	1402.00
502.00	1421.00
503.00	1468.00
504.00	1455.00
505.00	1561.00
506.00	1640.00
507.00	1780.00
508.00	1812.00
509.00	1940.00
510.00	1861.00
511.00	1855.00
512.00	1996.00
513.00	2123.00
514.00	2295.00
515.00	2480.00
516.00	2525.00
517.00	2856.00
518.00	3057.00
519.00	3224.00
520.00	3412.00
521.00	3594.00
522.00	3613.00
523.00	3911.00
524.00	3844.00
525.00	3779.00
526.00	3571.00
527.00	3470.00
528.00	3258.00
529.00	3179.00
530.00	2952.00
531.00	2712.00
532.00	2660.00
533.00	2495.00
534.00	2493.00
535.00	2563.00
536.00	2372.00
537.00	2369.00
538.00	2432.00
539.00	2480.00
540.00	2457.00
541.00	2608.00
542.00	2574.00
543.00	2578.00
544.00	2587.00
545.00	2497.00
546.00	2528.00
547.00	2524.00
548.00	2565.00
549.00	2733.00
550.00	2541.00
551.00	2567.00
552.00	2684.00
553.00	2901.00
554.00	2937.00
555.00	3386.00
556.00	3985.00
557.00	4877.00
558.00	5822.00
559.00	7425.00
560.00	9687.00
561.00	12036.00
562.00	14808.00
563.00	18283.00
564.00	21785.00
565.00	25720.00
566.00	28970.00
567.00	32181.00
568.00	34678.00
569.00	36339.00
570.00	36208.00
571.00	36069.00
572.00	33894.00
573.00	30899.00
574.00	27937.00
575.00	23974.00
576.00	20496.00
577.00	16819.00
578.00	13623.00
579.00	10868.00
580.00	8570.00
581.00	6675.00
582.00	5290.00
583.00	4368.00
584.00	3670.00
585.00	3238.00
586.00	3077.00
587.00	2831.00
588.00	2909.00
589.00	2898.00
590.00	3002.00
591.00	3087.00
592.00	3167.00
593.00	3377.00
594.00	3588.00
595.00	3801.00
596.00	4110.00
597.00	4648.00
598.00	5348.00
599.00	6374.00
600.00	8196.00
601.00	10497.00
602.00	14231.00
603.00	19967.00
604.00	28398.00
605.00	40221.00
606.00	56411.00
607.00	78475.00
608.00	107156.00
609.00	141852.00
610.00	184103.00
611.00	232492.00
612.00	286086.00
613.00	340441.00
614.00	395626.00
615.00	444105.00
616.00	484041.00
617.00	513507.00
618.00	526539.00
619.00	525868.00
620.00	508706.00
621.00	478259.00
622.00	435862.00
623.00	385316.00
624.00	331286.00
625.00	277202.00
626.00	224644.00
627.00	178009.00
628.00	136802.00
629.00	102784.00
630.00	75175.00
631.00	54348.00
632.00	38684.00
633.00	27441.00
634.00	19427.00
635.00	14055.00
636.00	10656.00
637.00	8232.00
638.00	6714.00
639.00	5641.00
640.00	5092.00
641.00	4687.00
642.00	4601.00
643.00	4438.00
644.00	4375.00
645.00	4360.00
646.00	4438.00
647.00	4245.00
648.00	4591.00
649.00	4473.00
650.00	4449.00
651.00	4539.00
652.00	4664.00
653.00	4809.00
654.00	5035.00
655.00	5085.00
656.00	5293.00
657.00	5336.00
658.00	5612.00
659.00	5789.00
660.00	6102.00
661.00	6340.00
662.00	6890.00
663.00	7133.00
664.00	7858.00
665.00	8881.00
666.00	10004.00
667.00	11516.00
668.00	13767.00
669.00	16369.00
670.00	20011.00
671.00	24475.00
672.00	29733.00
673.00	35693.00
674.00	43022.00
675.00	50454.00
676.00	58136.00
677.00	65722.00
678.00	72081.00
679.00	77709.00
680.00	82607.00
681.00	83843.00
682.00	84209.00
683.00	82190.00
684.00	77782.00
685.00	72125.00
686.00	65215.00
687.00	56956.00
688.00	49189.00
689.00	41097.00
690.00	33698.00
691.00	27535.00
692.00	22135.00
693.00	17273.00
694.00	13612.00
695.00	10772.00
696.00	8718.00
697.00	7293.00
698.00	6131.00
699.00	5596.00
700.00	5261.00
701.00	4776.00
702.00	4713.00
703.00	4590.00
704.00	4665.00
705.00	4725.00
706.00	4811.00
707.00	4978.00
708.00	5063.00
709.00	5270.00
710.00	5323.00
711.00	5638.00
712.00	5763.00
713.00	6086.00
714.00	6437.00
715.00	6721.00
716.00	6778.00
717.00	7013.00
718.00	7291.00
719.00	7290.00
720.00	7538.00
721.00	7617.00
722.00	7622.00
723.00	7669.00
724.00	7338.00
725.00	7054.00
726.00	6760.00
727.00	6736.00
728.00	6478.00
729.00	5861.00
730.00	5751.00
731.00	5544.00
732.00	5332.00
733.00	5128.00
734.00	4887.00
735.00	4853.00
736.00	4764.00
737.00	4719.00
738.00	4460.00
739.00	4559.00
740.00	4514.00
741.00	4426.00
742.00	4285.00
743.00	4337.00
744.00	4283.00
745.00	4423.00
746.00	4350.00
747.00	4406.00
748.00	4286.00
749.00	4310.00
750.00	4405.00
751.00	4300.00
752.00	4369.00
753.00	4436.00
754.00	4412.00
755.00	4442.00
756.00	4622.00
757.00	4576.00
758.00	4634.00
759.00	5048.00
760.00	4920.00
761.00	5101.00
762.00	5157.00
763.00	5513.00
764.00	5696.00
765.00	6143.00
766.00	6681.00
767.00	7036.00
768.00	7758.00
769.00	8101.00
770.00	9039.00
771.00	9507.00
772.00	10152.00
773.00	11040.00
774.00	11294.00
775.00	11637.00
776.00	12068.00
777.00	12014.00
778.00	11758.00
779.00	11656.00
780.00	11462.00
781.00	11218.00
782.00	10465.00
783.00	10020.00
784.00	9686.00
785.00	9192.00
786.00	8972.00
787.00	8330.00
788.00	8139.00
789.00	8101.00
790.00	7754.00
791.00	7753.00
792.00	7559.00
793.00	7593.00
794.00	7510.00
795.00	7511.00
796.00	7470.00
797.00	7622.00
798.00	7686.00
799.00	7724.00
800.00	7743.00
801.00	7639.00
802.00	7762.00
803.00	7842.00
804.00	7777.00
805.00	7816.00
806.00	7767.00
807.00	7915.00
808.00	8037.00
809.00	7783.00
810.00	7765.00
811.00	7822.00
812.00	7815.00
813.00	7769.00
814.00	7733.00
815.00	7747.00
816.00	7906.00
817.00	7758.00
818.00	7748.00
819.00	7826.00
820.00	7871.00
821.00	8199.00
822.00	8175.00
823.00	8504.00
824.00	8754.00
825.00	9061.00
826.00	9431.00
827.00	10007.00
828.00	10124.00
829.00	10605.00
830.00	10829.00
831.00	11246.00
832.00	11221.00
833.00	11343.00
834.00	11479.00
835.00	11226.00
836.00	11063.00
837.00	10806.00
838.00	10671.00
839.00	10159.00
840.00	9685.00
841.00	9701.00
842.00	9245.00
843.00	8721.00
844.00	8606.00
845.00	8516.00
846.00	8274.00
847.00	8321.00
848.00	8136.00
849.00	8093.00
850.00	7937.00
851.00	8113.00
852.00	8002.00
853.00	8324.00
854.00	8454.00
855.00	8342.00
856.00	8399.00
857.00	8518.00
858.00	8619.00
859.00	8613.00
860.00	8635.00
861.00	8661.00
862.00	8555.00
863.00	8468.00
864.00	8442.00
865.00	8299.00
866.00	8265.00
867.00	8251.00
868.00	8165.00
869.00	8216.00
870.00	8001.00
871.00	8060.00
872.00	8071.00
873.00	8000.00
874.00	8207.00
875.00	8224.00
876.00	8032.00
877.00	8298.00
878.00	8249.00
879.00	8415.00
880.00	8402.00
881.00	8458.00
882.00	8659.00
883.00	8845.00
884.00	8817.00
885.00	9032.00
886.00	9160.00
887.00	9348.00
888.00	9306.00
889.00	9442.00
890.00	9350.00
891.00	9330.00
892.00	9539.00
893.00	9809.00
894.00	9606.00
895.00	9522.00
896.00	9463.00
897.00	9748.00
898.00	9481.00
899.00	9408.00
900.00	9326.00
901.00	9280.00
902.00	9285.00
903.00	9239.00
904.00	9143.00
905.00	9000.00
906.00	8925.00
907.00	9166.00
908.00	8963.00
909.00	9216.00
910.00	9147.00
911.00	9194.00
912.00	9413.00
913.00	9426.00
914.00	9408.00
915.00	9497.00
916.00	9702.00
917.00	9789.00
918.00	9805.00
919.00	10106.00
920.00	10196.00
921.00	10181.00
922.00	10344.00
923.00	10362.00
924.00	10168.00
925.00	10356.00
926.00	10305.00
927.00	10389.00
928.00	10404.00
929.00	10360.00
930.00	10281.00
931.00	10203.00
932.00	10248.00
933.00	10138.00
934.00	10058.00
935.00	9996.00
936.00	10057.00
937.00	9801.00
938.00	9990.00
939.00	9856.00
940.00	10012.00
941.00	9817.00
942.00	9830.00
943.00	9653.00
944.00	9749.00
945.00	9757.00
946.00	9580.00
947.00	9738.00
948.00	9696.00
949.00	9754.00
950.00	9713.00
951.00	9596.00
952.00	9675.00
953.00	9657.00
954.00	9827.00
955.00	9707.00
956.00	9793.00
957.00	10061.00
958.00	9772.00
959.00	10039.00
960.00	9942.00
961.00	9993.00
962.00	10043.00
963.00	10051.00
964.00	10175.00
965.00	10220.00
966.00	10301.00
967.00	10289.00
968.00	10333.00
969.00	10525.00
970.00	10463.00
971.00	10500.00
972.00	10632.00
973.00	10501.00
974.00	10433.00
975.00	10576.00
976.00	10518.00
977.00	10566.00
978.00	10631.00
979.00	10570.00
980.00	10675.00
981.00	10303.00
982.00	10459.00
983.00	10512.00
984.00	10340.00
985.00	10084.00
986.00	9979.00
987.00	10024.00
988.00	10113.00
989.00	9974.00
990.00	10040.00
991.00	10005.00
992.00	9946.00
993.00	10064.00
994.00	9957.00
995.00	9933.00
996.00	9911.00
997.00	9880.00
998.00	9950.00
999.00	10030.00
1000.00	9993.00
1001.00	9945.00
1002.00	10101.00
1003.00	9995.00
1004.00	10019.00
1005.00	10033.00
1006.00	10013.00
1007.00	10265.00
1008.00	10177.00
1009.00	10274.00
1010.00	10384.00
1011.00	10397.00
1012.00	10315.00
1013.00	10462.00
1014.00	10469.00
1015.00	10469.00
1016.00	10536.00
1017.00	10568.00
1018.00	10437.00
1019.00	10430.00
1020.00	10520.00
1021.00	10265.00
1022.00	10328.00
1023.00	10284.00
1024.00	10427.00
1025.00	10263.00
1026.00	10221.00
1027.00	10085.00
1028.00	10129.00
1029.00	9882.00
1030.00	10305.00
1031.00	10007.00
1032.00	10142.00
1033.00	10005.00
1034.00	10106.00
1035.00	9906.00
1036.00	10108.00
1037.00	10119.00
1038.00	10092.00
1039.00	10178.00
1040.00	10113.00
1041.00	10069.00
1042.00	10216.00
1043.00	10074.00
1044.00	10353.00
1045.00	10125.00
1046.00	10192.00
1047.00	10115.00
1048.00	10205.00
1049.00	10361.00
1050.00	10255.00
1051.00	10261.00
1052.00	10250.00
1053.00	10121.00
1054.00	10370.00
1055.00	10404.00
1056.00	10258.00
1057.00	10220.00
1058.00	10425.00
1059.00	10324.00
1060.00	10280.00
1061.00	10352.00
1062.00	10569.00
1063.00	10337.00
1064.00	10400.00
1065.00	10395.00
1066.00	10361.00
1067.00	10390.00
1068.00	10449.00
1069.00	10413.00
1070.00	10540.00
1071.00	10407.00
1072.00	10551.00
1073.00	10565.00
1074.00	10516.00
1075.00	10507.00
1076.00	10448.00
1077.00	10481.00
1078.00	10582.00
1079.00	10262.00
1080.00	10587.00
1081.00	10650.00
1082.00	10484.00
1083.00	10762.00
1084.00	10801.00
1085.00	10715.00
1086.00	10423.00
1087.00	10578.00
1088.00	10578.00
1089.00	10693.00
1090.00	10625.00
1091.00	10602.00
1092.00	10622.00
1093.00	10729.00
1094.00	10565.00
1095.00	10539.00
1096.00	10736.00
1097.00	10686.00
1098.00	10676.00
1099.00	10837.00
1100.00	10685.00
1101.00	10727.00
1102.00	10631.00
1103.00	10443.00
1104.00	10759.00
1105.00	10815.00
1106.00	10905.00
1107.00	10703.00
1108.00	10634.00
1109.00	10720.00
1110.00	10546.00
1111.00	10689.00
1112.00	10757.00
1113.00	10747.00
1114.00	10699.00
1115.00	10773.00
1116.00	10537.00
1117.00	10733.00
1118.00	10585.00
1119.00	10892.00
1120.00	10768.00
1121.00	10637.00
1122.00	10768.00
1123.00	10712.00
1124.00	10863.00
1125.00	10760.00
1126.00	10874.00
1127.00	10794.00
1128.00	10692.00
1129.00	10786.00
1130.00	10838.00
1131.00	10687.00
1132.00	10743.00
1133.00	10650.00
1134.00	10800.00
1135.00	10818.00
1136.00	10584.00
1137.00	10614.00
1138.00	10692.00
1139.00	10648.00
1140.00	10587.00
1141.00	10414.00
1142.00	10722.00
1143.00	10366.00
1144.00	10450.00
1145.00	10680.00
1146.00	10601.00
1147.00	10728.00
1148.00	10563.00
1149.00	10555.00
1150.00	10703.00
1151.00	10703.00
1152.00	10537.00
1153.00	10723.00
1154.00	10746.00
1155.00	10619.00
1156.00	10579.00
1157.00	10544.00
1158.00	10567.00
1159.00	10501.00
1160.00	10584.00
1161.00	10637.00
1162.00	10530.00
1163.00	10514.00
1164.00	10541.00
1165.00	10690.00
1166.00	10435.00
1167.00	10497.00
1168.00	10603.00
1169.00	10812.00
1170.00	10639.00
1171.00	10733.00
1172.00	10836.00
1173.00	10626.00
1174.00	10712.00
1175.00	10654.00
1176.00	10812.00
1177.00	10787.00
1178.00	10616.00
1179.00	10565.00
1180.00	10727.00
1181.00	10791.00
1182.00	10761.00
1183.00	10931.00
1184.00	10855.00
1185.00	10716.00
1186.00	10676.00
1187.00	10898.00
1188.00	10767.00
1189.00	10824.00
1190.00	10718.00
1191.00	10922.00
1192.00	10695.00
1193.00	10824.00
1194.00	11042.00
1195.00	10667.00
1196.00	10756.00
1197.00	10936.00
1198.00	10733.00
1199.00	11009.00
1200.00	10838.00
1201.00	10722.00
1202.00	10963.00
1203.00	10904.00
1204.00	11058.00
1205.00	10892.00
1206.00	11128.00
1207.00	11031.00
1208.00	11009.00
1209.00	11012.00
1210.00	11063.00
1211.00	11127.00
1212.00	11053.00
1213.00	11358.00
1214.00	11074.00
1215.00	11114.00
1216.00	11293.00
1217.00	11196.00
1218.00	11361.00
1219.00	11260.00
1220.00	11140.00
1221.00	11477.00
1222.00	11206.00
1223.00	11442.00
1224.00	11275.00
1225.00	11207.00
1226.00	11425.00
1227.00	11565.00
1228.00	11454.00
1229.00	11374.00
1230.00	11371.00
1231.00	11545.00
1232.00	11549.00
1233.00	11783.00
1234.00	11564.00
1235.00	11476.00
1236.00	11521.00
1237.00	11463.00
1238.00	11437.00
1239.00	11507.00
1240.00	11329.00
1241.00	11422.00
1242.00	11326.00
1243.00	11189.00
1244.00	11131.00
1245.00	11022.00
1246.00	10958.00
1247.00	10948.00
1248.00	10895.00
1249.00	10952.00
1250.00	10951.00
1251.00	10898.00
1252.00	10806.00
1253.00	10904.00
1254.00	10750.00
1255.00	10743.00
1256.00	10668.00
1257.00	10864.00
1258.00	10676.00
1259.00	10843.00
1260.00	10732.00
1261.00	10624.00
1262.00	10628.00
1263.00	10687.00
1264.00	10672.00
1265.00	10576.00
1266.00	10477.00
1267.00	10575.00
1268.00	10568.00
1269.00	10649.00
1270.00	10694.00
1271.00	10932.00
1272.00	10737.00
1273.00	10714.00
1274.00	10946.00
1275.00	10869.00
1276.00	10985.00
1277.00	10914.00
1278.00	11104.00
1279.00	11459.00
1280.00	11381.00
1281.00	11449.00
1282.00	11668.00
1283.00	11484.00
1284.00	11713.00
1285.00	11880.00
1286.00	12038.00
1287.00	12053.00
1288.00	12197.00
1289.00	12155.00
1290.00	12127.00
1291.00	12032.00
1292.00	12160.00
1293.00	12255.00
1294.00	11957.00
1295.00	12125.00
1296.00	11946.00
1297.00	11975.00
1298.00	11732.00
1299.00	11521.00
1300.00	11426.00
1301.00	11278.00
1302.00	11032.00
1303.00	10875.00
1304.00	10895.00
1305.00	10940.00
1306.00	10643.00
1307.00	10709.00
1308.00	10722.00
1309.00	10573.00
1310.00	10579.00
1311.00	10470.00
1312.00	10543.00
1313.00	10636.00
1314.00	10446.00
1315.00	10299.00
1316.00	10251.00
1317.00	10495.00
1318.00	10372.00
1319.00	10251.00
1320.00	10328.00
1321.00	10222.00
1322.00	10366.00
1323.00	10275.00
1324.00	10195.00
1325.00	10302.00
1326.00	10428.00
1327.00	10173.00
1328.00	10426.00
1329.00	10104.00
1330.00	10285.00
1331.00	10226.00
1332.00	10311.00
1333.00	10170.00
1334.00	10275.00
1335.00	10330.00
1336.00	10252.00
1337.00	10220.00
1338.00	10088.00
1339.00	10272.00
1340.00	10088.00
1341.00	10364.00
1342.00	10347.00
1343.00	10322.00
1344.00	10553.00
1345.00	10462.00
1346.00	10592.00
1347.00	10644.00
1348.00	10898.00
1349.00	11017.00
1350.00	11097.00
1351.00	11518.00
1352.00	11669.00
1353.00	11624.00
1354.00	11899.00
1355.00	12334.00
1356.00	12612.00
1357.00	12865.00
1358.00	13035.00
1359.00	13349.00
1360.00	13504.00
1361.00	13612.00
1362.00	13792.00
1363.00	13806.00
1364.00	13815.00
1365.00	13753.00
1366.00	13679.00
1367.00	13449.00
1368.00	13334.00
1369.00	13287.00
1370.00	12828.00
1371.00	12711.00
1372.00	12356.00
1373.00	12136.00
1374.00	11591.00
1375.00	11410.00
1376.00	11226.00
1377.00	11021.00
1378.00	10812.00
1379.00	10474.00
1380.00	10253.00
1381.00	10121.00
1382.00	9826.00
1383.00	9946.00
1384.00	9907.00
1385.00	9583.00
1386.00	9570.00
1387.00	9560.00
1388.00	9472.00
1389.00	9468.00
1390.00	9364.00
1391.00	9471.00
1392.00	9394.00
1393.00	9420.00
1394.00	9294.00
1395.00	9389.00
1396.00	9369.00
1397.00	9102.00
1398.00	9303.00
1399.00	9258.00
1400.00	9170.00
1401.00	9236.00
1402.00	9289.00
1403.00	9305.00
1404.00	9117.00
1405.00	9285.00
1406.00	9350.00
1407.00	9234.00
1408.00	9143.00
1409.00	9188.00
1410.00	8799.00
1411.00	9010.00
1412.00	9140.00
1413.00	9053.00
1414.00	9159.00
1415.00	9192.00
1416.00	9111.00
1417.00	9212.00
1418.00	9083.00
1419.00	9119.00
1420.00	9166.00
1421.00	9093.00
1422.00	9119.00
1423.00	9157.00
1424.00	9181.00
1425.00	9024.00
1426.00	9068.00
1427.00	9240.00
1428.00	9419.00
1429.00	9206.00
1430.00	9255.00
1431.00	9458.00
1432.00	9490.00
1433.00	9391.00
1434.00	9336.00
1435.00	9431.00
1436.00	9535.00
1437.00	9606.00
1438.00	9519.00
1439.00	9526.00
1440.00	9643.00
1441.00	9645.00
1442.00	9503.00
1443.00	9580.00
1444.00	9415.00
1445.00	9555.00
1446.00	9331.00
1447.00	9439.00
1448.00	9160.00
1449.00	9221.00
1450.00	9173.00
1451.00	9160.00
1452.00	9302.00
1453.00	9053.00
1454.00	9061.00
1455.00	8941.00
1456.00	8943.00
1457.00	8861.00
1458.00	9022.00
1459.00	8849.00
1460.00	8991.00
1461.00	8875.00
1462.00	8853.00
1463.00	8989.00
1464.00	8856.00
1465.00	8809.00
1466.00	8752.00
1467.00	8722.00
1468.00	8757.00
1469.00	8653.00
1470.00	8766.00
1471.00	8710.00
1472.00	8747.00
1473.00	8638.00
1474.00	8628.00
1475.00	8788.00
1476.00	8517.00
1477.00	8612.00
1478.00	8450.00
1479.00	8577.00
1480.00	8526.00
1481.00	8678.00
1482.00	8638.00
1483.00	8657.00
1484.00	8577.00
1485.00	8603.00
1486.00	8697.00
1487.00	8759.00
1488.00	8753.00
1489.00	8669.00
1490.00	8557.00
1491.00	8715.00
1492.00	8621.00
1493.00	8733.00
1494.00	8815.00
1495.00	8839.00
1496.00	8671.00
1497.00	8863.00
1498.00	8647.00
1499.00	8843.00
1500.00	8755.00
1501.00	8923.00
1502.00	8849.00
1503.00	8792.00
1504.00	8969.00
1505.00	9092.00
1506.00	9157.00
1507.00	9264.00
1508.00	9367.00
1509.00	9530.00
1510.00	9505.00
1511.00	9625.00
1512.00	9755.00
1513.00	9824.00
1514.00	10029.00
1515.00	9963.00
1516.00	10029.00
1517.00	10439.00
1518.00	10374.00
1519.00	10360.00
1520.00	10339.00
1521.00	10364.00
1522.00	10332.00
1523.00	10249.00
1524.00	10554.00
1525.00	10397.00
1526.00	10274.00
1527.00	10455.00
1528.00	10148.00
1529.00	10234.00
1530.00	10248.00
1531.00	9786.00
1532.00	9793.00
1533.00	9866.00
1534.00	9717.00
1535.00	9606.00
1536.00	9594.00
1537.00	9592.00
1538.00	9607.00
1539.00	9559.00
1540.00	9520.00
1541.00	9574.00
1542.00	9486.00
1543.00	9581.00
1544.00	9596.00
1545.00	9599.00
1546.00	9552.00
1547.00	9674.00
1548.00	9659.00
1549.00	9912.00
1550.00	9742.00
1551.00	9964.00
1552.00	10124.00
1553.00	10132.00
1554.00	10342.00
1555.00	10360.00
1556.00	10577.00
1557.00	10542.00
1558.00	10868.00
1559.00	10939.00
1560.00	11010.00
1561.00	11380.00
1562.00	11226.00
1563.00	11292.00
1564.00	11607.00
1565.00	12051.00
1566.00	12068.00
1567.00	12308.00
1568.00	12423.00
1569.00	12505.00
1570.00	12652.00
1571.00	12908.00
1572.00	13001.00
1573.00	13248.00
1574.00	13555.00
1575.00	13682.00
1576.00	13657.00
1577.00	13984.00
1578.00	14100.00
1579.00	14357.00
1580.00	14493.00
1581.00	14467.00
1582.00	14490.00
1583.00	14861.00
1584.00	14710.00
1585.00	14872.00
1586.00	14985.00
1587.00	14931.00
1588.00	15056.00
1589.00	14963.00
1590.00	14952.00
1591.00	14807.00
1592.00	14846.00
1593.00	14638.00
1594.00	14722.00
1595.00	14842.00
1596.00	14576.00
1597.00	14578.00
1598.00	14197.00
1599.00	14143.00
1600.00	13806.00
1601.00	13654.00
1602.00	13617.00
1603.00	13537.00
1604.00	13166.00
1605.00	12921.00
1606.00	12635.00
1607.00	12998.00
1608.00	12403.00
1609.00	12122.00
1610.00	12228.00
1611.00	11819.00
1612.00	11938.00
1613.00	11401.00
1614.00	11416.00
1615.00	10951.00
1616.00	10935.00
1617.00	10559.00
1618.00	10245.00
1619.00	10383.00
1620.00	10095.00
1621.00	9970.00
1622.00	9683.00
1623.00	9791.00
1624.00	9546.00
1625.00	9289.00
1626.00	9373.00
1627.00	9051.00
1628.00	9088.00
1629.00	8792.00
1630.00	8604.00
1631.00	8588.00
1632.00	8415.00
1633.00	8457.00
1634.00	8233.00
1635.00	8113.00
1636.00	8294.00
1637.00	7900.00
1638.00	7909.00
1639.00	7960.00
1640.00	7810.00
1641.00	7665.00
1642.00	7577.00
1643.00	7602.00
1644.00	7434.00
1645.00	7292.00
1646.00	7239.00
1647.00	7185.00
1648.00	7286.00
1649.00	7269.00
1650.00	7183.00
1651.00	7205.00
1652.00	7246.00
1653.00	7222.00
1654.00	7259.00
1655.00	7276.00
1656.00	7170.00
1657.00	7232.00
1658.00	7260.00
1659.00	7411.00
1660.00	7550.00
1661.00	7469.00
1662.00	7836.00
1663.00	7893.00
1664.00	8271.00
1665.00	8336.00
1666.00	8704.00
1667.00	9004.00
1668.00	9368.00
1669.00	9883.00
1670.00	10061.00
1671.00	10370.00
1672.00	10735.00
1673.00	11071.00
1674.00	11526.00
1675.00	12072.00
1676.00	12279.00
1677.00	12554.00
1678.00	12796.00
1679.00	12990.00
1680.00	13167.00
1681.00	13049.00
1682.00	13291.00
1683.00	13341.00
1684.00	13249.00
1685.00	13036.00
1686.00	12845.00
1687.00	12526.00
1688.00	12326.00
1689.00	11799.00
1690.00	11460.00
1691.00	11251.00
1692.00	10802.00
1693.00	9982.00
1694.00	9489.00
1695.00	9290.00
1696.00	8723.00
1697.00	8427.00
1698.00	7967.00
1699.00	7694.00
1700.00	7182.00
1701.00	7015.00
1702.00	6733.00
1703.00	6661.00
1704.00	6421.00
1705.00	6182.00
1706.00	6078.00
1707.00	6194.00
1708.00	5987.00
1709.00	5899.00
1710.00	5737.00
1711.00	5769.00
1712.00	5697.00
1713.00	5759.00
1714.00	5484.00
1715.00	5603.00
1716.00	5448.00
1717.00	5564.00
1718.00	5476.00
1719.00	5445.00
1720.00	5478.00
1721.00	5487.00
1722.00	5328.00
1723.00	5344.00
1724.00	5425.00
1725.00	5527.00
1726.00	5474.00
1727.00	5409.00
1728.00	5350.00
1729.00	5318.00
1730.00	5355.00
1731.00	5388.00
1732.00	5390.00
1733.00	5451.00
1734.00	5312.00
1735.00	5406.00
1736.00	5326.00
1737.00	5339.00
1738.00	5380.00
1739.00	5398.00
1740.00	5421.00
1741.00	5419.00
1742.00	5419.00
1743.00	5472.00
1744.00	5453.00
1745.00	5294.00
1746.00	5386.00
1747.00	5364.00
1748.00	5520.00
1749.00	5383.00
1750.00	5488.00
1751.00	5465.00
1752.00	5621.00
1753.00	5484.00
1754.00	5543.00
1755.00	5423.00
1756.00	5516.00
1757.00	5642.00
1758.00	5651.00
1759.00	5581.00
1760.00	5682.00
1761.00	5510.00
1762.00	5549.00
1763.00	5506.00
1764.00	5580.00
1765.00	5481.00
1766.00	5549.00
1767.00	5614.00
1768.00	5589.00
1769.00	5623.00
1770.00	5651.00
1771.00	5697.00
1772.00	5638.00
1773.00	5646.00
1774.00	5617.00
1775.00	5526.00
1776.00	5517.00
1777.00	5542.00
1778.00	5569.00
1779.00	5413.00
1780.00	5364.00
1781.00	5368.00
1782.00	5278.00
1783.00	5265.00
1784.00	5368.00
1785.00	5236.00
1786.00	5214.00
1787.00	5326.00
1788.00	5127.00
1789.00	5183.00
1790.00	5047.00
1791.00	5074.00
1792.00	5009.00
1793.00	4838.00
1794.00	4947.00
1795.00	4864.00
1796.00	4686.00
1797.00	4694.00
1798.00	4724.00
1799.00	4561.00
1800.00	4608.00
1801.00	4571.00
1802.00	4531.00
1803.00	4445.00
1804.00	4487.00
1805.00	4311.00
1806.00	4260.00
1807.00	4287.00
1808.00	4261.00
1809.00	4217.00
1810.00	4159.00
1811.00	4019.00
1812.00	4014.00
1813.00	4077.00
1814.00	3891.00
1815.00	3980.00
1816.00	3991.00
1817.00	3878.00
1818.00	3880.00
1819.00	3781.00
1820.00	3647.00
1821.00	3759.00
1822.00	3682.00
1823.00	3600.00
1824.00	3512.00
1825.00	3649.00
1826.00	3587.00
1827.00	3520.00
1828.00	3420.00
1829.00	3537.00
1830.00	3551.00
1831.00	3412.00
1832.00	3482.00
1833.00	3401.00
1834.00	3448.00
1835.00	3347.00
1836.00	3330.00
1837.00	3332.00
1838.00	3237.00
1839.00	3147.00
1840.00	3199.00
1841.00	3185.00
1842.00	3061.00
1843.00	3120.00
1844.00	3147.00
1845.00	3118.00
1846.00	3048.00
1847.00	3082.00
1848.00	3086.00
1849.00	3143.00
1850.00	2981.00
1851.00	2944.00
1852.00	2950.00
1853.00	2896.00
1854.00	2928.00
1855.00	2950.00
1856.00	2889.00
1857.00	2858.00
1858.00	2887.00
1859.00	2802.00
1860.00	2771.00
1861.00	2842.00
1862.00	2839.00
1863.00	2767.00
1864.00	2797.00
1865.00	2737.00
1866.00	2860.00
1867.00	2934.00
1868.00	2818.00
1869.00	2886.00
1870.00	2837.00
1871.00	2853.00
1872.00	2847.00
1873.00	2814.00
1874.00	2841.00
1875.00	2927.00
1876.00	2884.00
1877.00	3014.00
1878.00	3064.00
1879.00	3019.00
1880.00	3128.00
1881.00	3258.00
1882.00	3309.00
1883.00	3290.00
1884.00	3312.00
1885.00	3312.00
1886.00	3307.00
1887.00	3417.00
1888.00	3397.00
1889.00	3406.00
1890.00	3354.00
1891.00	3440.00
1892.00	3335.00
1893.00	3276.00
1894.00	3214.00
1895.00	3239.00
1896.00	3150.00
1897.00	3113.00
1898.00	3049.00
1899.00	2958.00
1900.00	2947.00
1901.00	2814.00
1902.00	2756.00
1903.00	2702.00
1904.00	2642.00
1905.00	2555.00
1906.00	2649.00
1907.00	2579.00
1908.00	2449.00
1909.00	2553.00
1910.00	2358.00
1911.00	2304.00
1912.00	2381.00
1913.00	2336.00
1914.00	2345.00
1915.00	2273.00
1916.00	2266.00
1917.00	2237.00
1918.00	2213.00
1919.00	2251.00
1920.00	2286.00
1921.00	2182.00
1922.00	2245.00
1923.00	2244.00
1924.00	2128.00
1925.00	2183.00
1926.00	2190.00
1927.00	2107.00
1928.00	2153.00
1929.00	2124.00
1930.00	2081.00
1931.00	2088.00
1932.00	2066.00
1933.00	2031.00
1934.00	2098.00
1935.00	2087.00
1936.00	1953.00
1937.00	1902.00
1938.00	1862.00
1939.00	1965.00
1940.00	1813.00
1941.00	1910.00
1942.00	1875.00
1943.00	1919.00
1944.00	1818.00
1945.00	1741.00
1946.00	1791.00
1947.00	1829.00
1948.00	1753.00
1949.00	1796.00
1950.00	1798.00
1951.00	1769.00
1952.00	1746.00
1953.00	1705.00
1954.00	1717.00
1955.00	1742.00
1956.00	1720.00
1957.00	1656.00
1958.00	1766.00
1959.00	1753.00
1960.00	1669.00
1961.00	1669.00
1962.00	1745.00
1963.00	1791.00
1964.00	1700.00
1965.00	1700.00
1966.00	1632.00
1967.00	1643.00
1968.00	1740.00
1969.00	1620.00
1970.00	1572.00
1971.00	1604.00
1972.00	1530.00
1973.00	1603.00
1974.00	1631.00
1975.00	1615.00
1976.00	1632.00
1977.00	1536.00
1978.00	1560.00
1979.00	1543.00
1980.00	1588.00
1981.00	1631.00
1982.00	1515.00
1983.00	1608.00
1984.00	1532.00
1985.00	1567.00
1986.00	1432.00
1987.00	1456.00
1988.00	1450.00
1989.00	1473.00
1990.00	1487.00
1991.00	1387.00
1992.00	1441.00
1993.00	1444.00
1994.00	1450.00
1995.00	1392.00
1996.00	1380.00
1997.00	1456.00
1998.00	1418.00
1999.00	1419.00
2000.00	1393.00
2001.00	1385.00
2002.00	1404.00
2003.00	1359.00
2004.00	1367.00
2005.00	1369.00
2006.00	1308.00
2007.00	1387.00
2008.00	1346.00
2009.00	1301.00
2010.00	1251.00
2011.00	1390.00
2012.00	1351.00
2013.00	1282.00
2014.00	1310.00
2015.00	1302.00
2016.00	1218.00
2017.00	1241.00
2018.00	1236.00
2019.00	1225.00
2020.00	1231.00
2021.00	1272.00
2022.00	1138.00
2023.00	1205.00
2024.00	1155.00
2025.00	1211.00
2026.00	1181.00
2027.00	1187.00
2028.00	1153.00
2029.00	1139.00
2030.00	1227.00
2031.00	1099.00
2032.00	1157.00
2033.00	1089.00
2034.00	1123.00
2035.00	1116.00
2036.00	1100.00
2037.00	1138.00
2038.00	1074.00
2039.00	1127.00
2040.00	1106.00
2041.00	1076.00
2042.00	1126.00
2043.00	1047.00
2044.00	1103.00
2045.00	1039.00
2046.00	1058.00
2047.00	1035.00
2048.00	 0.00
